index,run,trial,onset,duration,town,pic,itemNum,resp,respRT1,1,1,1.000804332,68.01106127,Town7,env7,1,big bang theory guy,38.660841882,1,1,1.000804332,68.01106127,Town7,env7,2,screwdriver,21.899209113,1,1,1.000804332,68.01106127,Town7,env7,3,?,7.4470649194,1,2,69.05501766,30.82311613,Town6,env6,1,Taylor Swift,13.269554075,1,2,69.05501766,30.82311613,Town6,env6,2,Alligator,6.6242410456,1,2,69.05501766,30.82311613,Town6,env6,3,Tape measurer,10.927304197,1,3,99.91984427,11.61906109,Town4,env4,1,saw,9.8033105258,1,3,99.91984427,11.61906109,Town4,env4,2,?,1.142703219,1,3,99.91984427,11.61906109,Town4,env4,3,?,0.6712560410,1,4,111.5812329,28.06213249,Town2,env2,1,?,26.3011705911,1,4,111.5812329,28.06213249,Town2,env2,2,?,0.82353198812,1,4,111.5812329,28.06213249,Town2,env2,3,?,0.9355116713,1,5,139.7179047,52.79384334,Town5,env5,1,Jonny Depp,17.9352332914,1,5,139.7179047,52.79384334,Town5,env5,2,?,33.8651478815,1,5,139.7179047,52.79384334,Town5,env5,3,?,0.99170687716,1,6,192.5537161,35.54148955,Town10,env10,1,?,34.0200787317,1,6,192.5537161,35.54148955,Town10,env10,2,?,0.76024520318,1,6,192.5537161,35.54148955,Town10,env10,3,?,0.75940600219,1,7,228.1368788,18.30881982,Town3,env3,1,Katy Perry,9.58067557320,1,7,228.1368788,18.30881982,Town3,env3,2,Apple,5.86283598921,1,7,228.1368788,18.30881982,Town3,env3,3,Stapler,2.86357020822,1,8,246.4878581,18.99007194,Town8,env8,1,Puppy,13.2778203923,1,8,246.4878581,18.99007194,Town8,env8,2,Beyonce,2.81524209424,1,8,246.4878581,18.99007194,Town8,env8,3,Lemons,2.89524250925,1,9,265.5207795,16.35620734,Town1,env1,1,George Clooney,11.9140106826,1,9,265.5207795,16.35620734,Town1,env1,2,?,2.79302739627,1,9,265.5207795,16.35620734,Town1,env1,3,?,1.64738873528,1,10,281.9194877,38.00210088,Town9,env9,1,Paul,35.2660070629,1,10,281.9194877,38.00210088,Town9,env9,2,?,2.15092719930,1,10,281.9194877,38.00210088,Town9,env9,3,?,0.58341600131,1,11,319.9643147,25.99250785,Town12,env12,1,Katy Perry,23.0967099432,1,11,319.9643147,25.99250785,Town12,env12,2,Stapler,1.31938202333,1,11,319.9643147,25.99250785,Town12,env12,3,Apple,1.57456081734,1,12,345.9989887,13.27625587,Town11,env11,1,?,11.5882844535,1,12,345.9989887,13.27625587,Town11,env11,2,?,0.64705938336,1,12,345.9989887,13.27625587,Town11,env11,3,?,1.03913967337,2,1,1.001632135,27.69420081,Town4,env4,1,saw,7.44828467838,2,1,1.001632135,27.69420081,Town4,env4,2,alligator,7.76713969439,2,1,1.001632135,27.69420081,Town4,env4,3,curly haired brunette woman,12.474700940,2,2,28.74102228,23.44724579,Town2,env2,1,mark zuckerberg,14.0784562241,2,2,28.74102228,23.44724579,Town2,env2,2,cucumber,5.09479823742,2,2,28.74102228,23.44724579,Town2,env2,3,scissors,4.27212918543,2,3,52.23402625,12.27129906,Town10,env10,1,grapes,3.34535750944,2,3,52.23402625,12.27129906,Town10,env10,2,katy perry,3.60585456445,2,3,52.23402625,12.27129906,Town10,env10,3,duck,5.31831745546,2,4,64.55208642,14.79990294,Town5,env5,1,sherlock,7.43187624447,2,4,64.55208642,14.79990294,Town5,env5,2,flamingo,2.73622818848,2,4,64.55208642,14.79990294,Town5,env5,3,watermelon,4.63002725449,2,5,79.39855661,11.96970612,Town1,env1,1,george clooney,7.05839202850,2,5,79.39855661,11.96970612,Town1,env1,2,lettuce,3.14226880151,2,5,79.39855661,11.96970612,Town1,env1,3,zebra,1.7671267752,2,6,91.41590143,9.799981993,Town6,env6,1,taylor swift,4.9610566553,2,6,91.41590143,9.799981993,Town6,env6,2,tape measurer,3.96558811554,2,6,91.41590143,9.799981993,Town6,env6,3,cow,0.87151504255,2,7,101.262392,7.523679956,Town8,env8,1,beyonce,3.35412472656,2,7,101.262392,7.523679956,Town8,env8,2,puppy,2.20647833357,2,7,101.262392,7.523679956,Town8,env8,3,lemons,1.96090744758,2,8,108.833272,12.39050584,Town9,env9,1,paul,3.31107754459,2,8,108.833272,12.39050584,Town9,env9,2,wrench,1.80757126860,2,8,108.833272,12.39050584,Town9,env9,3,bananas,7.27011216861,2,9,121.2719263,13.235783,Town12,env12,1,zoey,8.85943245562,2,9,121.2719263,13.235783,Town12,env12,2,apple,1.6796946763,2,9,121.2719263,13.235783,Town12,env12,3,stapler,2.6949090364,2,10,134.555162,22.26640336,Town7,env7,1,big bang theory guy,7.93646833565,2,10,134.555162,22.26640336,Town7,env7,2,drill,9.23331160666,2,10,134.555162,22.26640336,Town7,env7,3,giraffe,5.09482642967,2,11,156.8693886,26.33861686,Town11,env11,1,depp,7.66451406268,2,11,156.8693886,26.33861686,Town11,env11,2,carrot,6.54161632869,2,11,156.8693886,26.33861686,Town11,env11,3,hammer,12.1307154170,2,12,183.2535841,16.52105564,Town3,env3,1,emma watson,8.11362227671,2,12,183.2535841,16.52105564,Town3,env3,2,bear,2.70299481272,2,12,183.2535841,16.52105564,Town3,env3,3,screwdriver,5.70268150573,3,1,1.001551704,11.18732967,Town10,env10,1,grapes,4.84878954574,3,1,1.001551704,11.18732967,Town10,env10,2,katy perry,1.79873913175,3,1,1.001551704,11.18732967,Town10,env10,3,duck,4.53578357376,3,2,12.24799229,8.812233591,Town8,env8,1,beyonce,3.85289075877,3,2,12.24799229,8.812233591,Town8,env8,2,puppy,3.13538537378,3,2,12.24799229,8.812233591,Town8,env8,3,lemons,1.8220744379,3,3,21.11748886,12.33788173,Town6,env6,1,taylor swift,6.08238476680,3,3,21.11748886,12.33788173,Town6,env6,2,cow,1.31862703381,3,3,21.11748886,12.33788173,Town6,env6,3,tape measurer,4.93516308782,3,4,33.51452949,12.26445064,Town1,env1,1,george clooney,5.33316429583,3,4,33.51452949,12.26445064,Town1,env1,2,zebra,5.25029130584,3,4,33.51452949,12.26445064,Town1,env1,3,lettuce,1.67930478485,3,5,45.83502595,18.02786283,Town3,env3,1,emma watson,10.9709671286,3,5,45.83502595,18.02786283,Town3,env3,2,screwdriver,5.6163207187,3,5,45.83502595,18.02786283,Town3,env3,3,bear,1.43883326888,3,6,63.91981487,8.230329404,Town5,env5,1,sherlock,3.26278136989,3,6,63.91981487,8.230329404,Town5,env5,2,flamingo,2.79032208390,3,6,63.91981487,8.230329404,Town5,env5,3,watermelon,2.17547631791,3,7,72.20613594,29.01078838,Town11,env11,1,jonny dep,4.16822112592,3,7,72.20613594,29.01078838,Town11,env11,2,hammer,8.08501078693,3,7,72.20613594,29.01078838,Town11,env11,3,?,16.755676194,3,8,101.2731639,12.62435382,Town7,env7,1,big bang theory guy,7.0699821695,3,8,101.2731639,12.62435382,Town7,env7,2,drill,2.58463254396,3,8,101.2731639,12.62435382,Town7,env7,3,giraffe,2.967826197,3,9,113.9531876,7.935120481,Town4,env4,1,saw,2.1595990598,3,9,113.9531876,7.935120481,Town4,env4,2,alligator,2.11043204299,3,9,113.9531876,7.935120481,Town4,env4,3,natalie portman,3.663320345100,3,10,121.9440964,7.160485779,Town12,env12,1,zoey,3.696372533101,3,10,121.9440964,7.160485779,Town12,env12,2,apple,1.967481946102,3,10,121.9440964,7.160485779,Town12,env12,3,stapler,1.494750646103,3,11,129.1616133,7.231345391,Town9,env9,1,paul,2.743435218104,3,11,129.1616133,7.231345391,Town9,env9,2,wrench,3.111186745105,3,11,129.1616133,7.231345391,Town9,env9,3,banana,1.374773015106,3,12,136.4484878,13.79937251,Town2,env2,1,mark zuckerberg,7.727579518107,3,12,136.4484878,13.79937251,Town2,env2,2,cucumbers,3.471830211108,3,12,136.4484878,13.79937251,Town2,env2,3,scissors,2.598192096109,4,1,1.001729222,21.70300707,Town4,env4,1,saw,13.33168618110,4,1,1.001729222,21.70300707,Town4,env4,2,alligator,4.535298579111,4,1,1.001729222,21.70300707,Town4,env4,3,natalie portman,3.831944022112,4,2,22.74556962,9.725811642,Town10,env10,1,katy perry,3.564971244113,4,2,22.74556962,9.725811642,Town10,env10,2,graps,1.174864481114,4,2,22.74556962,9.725811642,Town10,env10,3,duck,4.984248442115,4,3,32.51221275,7.590378695,Town5,env5,1,sherlock,3.14253481116,4,3,32.51221275,7.590378695,Town5,env5,2,flamingo,2.414691764117,4,3,32.51221275,7.590378695,Town5,env5,3,watermelon,2.031432872118,4,4,40.143237,8.575001653,Town6,env6,1,taylor swift,4.311272171119,4,4,40.143237,8.575001653,Town6,env6,2,cow,0.871074576120,4,4,40.143237,8.575001653,Town6,env6,3,tape measurer,3.390924057121,4,5,48.7629737,9.580257347,Town7,env7,1,bing bang theory guy,5.396001478122,4,5,48.7629737,9.580257347,Town7,env7,2,drill,1.567773949123,4,5,48.7629737,9.580257347,Town7,env7,3,giraffe,2.614365079124,4,6,58.38658303,8.469070338,Town11,env11,1,jonny depp,3.564156258125,4,6,58.38658303,8.469070338,Town11,env11,2,carrot,3.664110345126,4,6,58.38658303,8.469070338,Town11,env11,3,hammer,1.238951661127,4,7,66.89698833,6.125907348,Town8,env8,1,puppy,3.141615418128,4,7,66.89698833,6.125907348,Town8,env8,2,beyonce,1.67930414129,4,7,66.89698833,6.125907348,Town8,env8,3,lemons,1.303222907130,4,8,73.06419232,9.486606515,Town2,env2,1,mark zuckerberg,4.142789504131,4,8,73.06419232,9.486606515,Town2,env2,2,cucumbers,3.054274014132,4,8,73.06419232,9.486606515,Town2,env2,3,scissors,2.287807859133,4,9,82.59387562,7.341191944,Town3,env3,1,emma watson,3.133648522134,4,9,82.59387562,7.341191944,Town3,env3,2,bear,1.174063881135,4,9,82.59387562,7.341191944,Town3,env3,3,screwdriver,3.031662132136,4,10,89.97690726,7.205795317,Town12,env12,1,zoey,3.310040535137,4,10,89.97690726,7.205795317,Town12,env12,2,apple,1.910665078138,4,10,89.97690726,7.205795317,Town12,env12,3,stapler,1.983375246139,4,11,97.22352151,9.80781688,Town1,env1,1,george clooney,5.118313951140,4,11,97.22352151,9.80781688,Town1,env1,2,zebra,1.831244324141,4,11,97.22352151,9.80781688,Town1,env1,3,lettuce,2.85653683142,4,12,107.0725493,8.391306404,Town9,env9,1,paul,4.397405932143,4,12,107.0725493,8.391306404,Town9,env9,2,wrench,2.527322425144,4,12,107.0725493,8.391306404,Town9,env9,3,bananas,1.464714099145,5,1,1.001603413,8.913545225,Town3,env3,1,emma watson,4.798226733146,5,1,1.001603413,8.913545225,Town3,env3,2,bear,1.32749293147,5,1,1.001603413,8.913545225,Town3,env3,3,screwdriver,2.783821787148,5,2,9.958766888,6.426948556,Town8,env8,1,beyonce,2.411283431149,5,2,9.958766888,6.426948556,Town8,env8,2,puppy,2.022633928150,5,2,9.958766888,6.426948556,Town8,env8,3,lemons,1.991250251151,5,3,16.43299976,13.84202697,Town2,env2,1,mark zuckerberg,6.024387153152,5,3,16.43299976,13.84202697,Town2,env2,2,cucumbers,2.335347806153,5,3,16.43299976,13.84202697,Town2,env2,3,scissors,5.480461942154,5,4,30.3182836,13.71551527,Town6,env6,1,taylor swift,7.747085548155,5,4,30.3182836,13.71551527,Town6,env6,2,cow,2.328294845156,5,4,30.3182836,13.71551527,Town6,env6,3,tape measurer,3.638359796157,5,5,44.07720732,7.214016198,Town10,env10,1,katy perry,4.516234921158,5,5,44.07720732,7.214016198,Town10,env10,2,grapes,1.800622742159,5,5,44.07720732,7.214016198,Town10,env10,3,duck,0.895329957160,5,6,51.33419018,6.107704185,Town12,env12,1,zoey,3.331831491161,5,6,51.33419018,6.107704185,Town12,env12,2,stapler,1.743155981162,5,6,51.33419018,6.107704185,Town12,env12,3,apple,1.030901887163,5,7,57.48613484,13.98086157,Town7,env7,1,big bang theory guy,9.41995495164,5,7,57.48613484,13.98086157,Town7,env7,2,drill,2.887130333165,5,7,57.48613484,13.98086157,Town7,env7,3,giraffe,1.672088253166,5,8,71.51228356,10.68277072,Town4,env4,1,saw,2.058273721167,5,8,71.51228356,10.68277072,Town4,env4,2,natalie portman,5.494802014168,5,8,71.51228356,10.68277072,Town4,env4,3,alligator,3.127949691169,5,9,82.24014459,10.37931277,Town9,env9,1,paul,2.834940903170,5,9,82.24014459,10.37931277,Town9,env9,2,bananas,5.798417346171,5,9,82.24014459,10.37931277,Town9,env9,3,wrench,1.743979593172,5,10,92.66423611,12.13166751,Town11,env11,1,jonny depp,5.379276223173,5,10,92.66423611,12.13166751,Town11,env11,2,carrot,3.142115799174,5,10,92.66423611,12.13166751,Town11,env11,3,hammer,3.608535439175,5,11,104.8391711,8.156318659,Town1,env1,1,george clooney,4.268494913176,5,11,104.8391711,8.156318659,Town1,env1,2,zebra,2.295769177,5,11,104.8391711,8.156318659,Town1,env1,3,lettuce,1.589941196178,5,12,113.040163,9.17865495,Town5,env5,1,sherlock,3.355360691179,5,12,113.040163,9.17865495,Town5,env5,2,flamingo,2.999525534180,5,12,113.040163,9.17865495,Town5,env5,3,watermelon,2.821785019