index,run,trial,onset,duration,town,pic,itemNum,resp,respRT,itemType,acc1,1,1,1.0012,22.8444,Town10,env10,1,?,16.6176,animal,02,1,1,1.0012,22.8444,Town10,env10,2,?,4.8793,face,03,1,1,1.0012,22.8444,Town10,env10,3,?,1.3437,fruitveg,04,1,2,23.8912,9.5908,Town3,env3,1,?,6.0463,animal,05,1,2,23.8912,9.5908,Town3,env3,2,?,1.6892,face,06,1,2,23.8912,9.5908,Town3,env3,3,?,1.8535,tool,07,1,3,33.5281,15.7032,Town5,env5,1,?,13.8479,face,08,1,3,33.5281,15.7032,Town5,env5,2,?,0.8868,animal,09,1,3,33.5281,15.7032,Town5,env5,3,?,0.9666,fruitveg,010,1,4,49.2775,6.8134,Town4,env4,1,?,5.1653,tool,011,1,4,49.2775,6.8134,Town4,env4,2,?,0.8225,animal,012,1,4,49.2775,6.8134,Town4,env4,3,?,0.8239,face,013,1,5,56.1367,20.2525,Town11,env11,1,?,8.8588,tool,014,1,5,56.1367,20.2525,Town11,env11,2,?,0.9033,fruitveg,015,1,5,56.1367,20.2525,Town11,env11,3,johnny depp,10.4885,face,116,1,6,76.4354,7.7273,Town2,env2,1,?,5.9741,face,017,1,6,76.4354,7.7273,Town2,env2,2,?,0.88,tool,018,1,6,76.4354,7.7273,Town2,env2,3,?,0.8713,fruitveg,019,1,7,84.2092,17.1338,Town8,env8,1,?,9.4615,fruitveg,020,1,7,84.2092,17.1338,Town8,env8,2,drill,3.8243,animal,021,1,7,84.2092,17.1338,Town8,env8,3,?,3.8462,face,022,1,8,101.3888,4.7234,Town9,env9,1,?,2.3309,fruitveg,023,1,8,101.3888,4.7234,Town9,env9,2,?,0.8306,face,024,1,8,101.3888,4.7234,Town9,env9,3,?,1.56,tool,025,1,9,106.1584,8.0657,Town12,env12,1,?,6.1688,face,026,1,9,106.1584,8.0657,Town12,env12,2,?,0.8802,fruitveg,027,1,9,106.1584,8.0657,Town12,env12,3,?,1.0149,tool,028,1,10,114.2701,4.146,Town7,env7,1,?,2.3125,tool ,029,1,10,114.2701,4.146,Town7,env7,2,?,0.9119,animal,030,1,10,114.2701,4.146,Town7,env7,3,?,0.9199,face,031,1,11,118.4626,4.3446,Town1,env1,1,?,2.36,animal,032,1,11,118.4626,4.3446,Town1,env1,2,?,0.8636,face,033,1,11,118.4626,4.3446,Town1,env1,3,?,1.1193,fruitveg,034,1,12,122.8533,5.5627,Town6,env6,1,?,3.5938,tool,035,1,12,122.8533,5.5627,Town6,env6,2,?,1.0071,animal,036,1,12,122.8533,5.5627,Town6,env6,3,?,0.96,face,037,2,1,1.0025,12.009,Town5,env5,1,?,10.0469,face,038,2,1,1.0025,12.009,Town5,env5,2,?,1.0872,animal,039,2,1,1.0025,12.009,Town5,env5,3,?,0.8711,fruitveg,040,2,2,13.0532,7.966,Town12,env12,1,?,6.3008,face,041,2,2,13.0532,7.966,Town12,env12,2,?,0.8245,fruitveg,042,2,2,13.0532,7.966,Town12,env12,3,?,0.8388,tool,043,2,3,21.0611,3.7504,Town8,env8,1,?,2.1726,fruitveg,044,2,3,21.0611,3.7504,Town8,env8,2,?,0.7594,animal,045,2,3,21.0611,3.7504,Town8,env8,3,?,0.8165,face,046,2,4,24.8526,5.1981,Town6,env6,1,?,3.7254,tool,047,2,4,24.8526,5.1981,Town6,env6,2,?,0.7191,animal,048,2,4,24.8526,5.1981,Town6,env6,3,?,0.7518,face,049,2,5,30.0927,6.4722,Town4,env4,1,?,4.369,tool,050,2,5,30.0927,6.4722,Town4,env4,2,?,0.8379,animal,051,2,5,30.0927,6.4722,Town4,env4,3,?,1.2635,face,052,2,6,36.6075,10.1741,Town3,env3,1,?,7.5971,animal,053,2,6,36.6075,10.1741,Town3,env3,2,?,0.7991,face,054,2,6,36.6075,10.1741,Town3,env3,3,?,1.7761,tool,055,2,7,46.823,4.6872,Town1,env1,1,?,3.102,animal,056,2,7,46.823,4.6872,Town1,env1,2,?,0.7992,face,057,2,7,46.823,4.6872,Town1,env1,3,?,0.7841,fruitveg,058,2,8,51.5522,4.7492,Town9,env9,1,?,3.2448,fruitveg,059,2,8,51.5522,4.7492,Town9,env9,2,?,0.7276,face,060,2,8,51.5522,4.7492,Town9,env9,3,?,0.775,tool,061,2,9,56.3439,4.3424,Town2,env2,1,?,2.2923,face,062,2,9,56.3439,4.3424,Town2,env2,2,?,1.1843,tool,063,2,9,56.3439,4.3424,Town2,env2,3,?,0.8638,fruitveg,064,2,10,60.7283,7.5121,Town7,env7,1,?,5.9753,tool ,065,2,10,60.7283,7.5121,Town7,env7,2,?,0.758,animal,066,2,10,60.7283,7.5121,Town7,env7,3,?,0.777,face,067,2,11,68.2825,12.209,Town10,env10,1,?,10.7519,animal,068,2,11,68.2825,12.209,Town10,env10,2,?,0.735,face,069,2,11,68.2825,12.209,Town10,env10,3,?,0.7204,fruitveg,070,2,12,80.5334,11.0268,Town11,env11,1,Johnny depp,8.7144,face,171,2,12,80.5334,11.0268,Town11,env11,2,?,1.5496,fruitveg,072,2,12,80.5334,11.0268,Town11,env11,3,?,0.7609,tool,073,3,1,1.0023,15.4352,Town12,env12,1,zooey deschanel,10.4819,face,174,3,1,1.0023,15.4352,Town12,env12,2,apple,1.9585,fruitveg,175,3,1,1.0023,15.4352,Town12,env12,3,red stapler,2.9906,tool,176,3,2,16.5171,15.5913,Town9,env9,1,wrench,7.3419,tool,177,3,2,16.5171,15.5913,Town9,env9,2,paul mccartney,6.2642,face,178,3,2,16.5171,15.5913,Town9,env9,3,banana,1.9833,fruitveg,179,3,3,32.15,22.0083,Town3,env3,1,hermoine actress,11.4395,face,180,3,3,32.15,22.0083,Town3,env3,2,bear,4.031,animal,181,3,3,32.15,22.0083,Town3,env3,3,green handle screwdriver,6.5359,tool,182,3,4,54.2002,17.4495,Town5,env5,1,watermelon,6.8652,fruitveg,183,3,4,54.2002,17.4495,Town5,env5,2,benedict cumberbatch,7.0478,face,184,3,4,54.2002,17.4495,Town5,env5,3,pelican,3.5347,animal,085,3,5,71.692,33.519,Town2,env2,1,mark suckerberg :P,24.8365,face,186,3,5,71.692,33.519,Town2,env2,2,cucumber,5.6479,fruitveg,187,3,5,71.692,33.519,Town2,env2,3,scissors,3.0326,tool,188,3,6,105.2548,18.1734,Town7,env7,1,sheldon cooper actor,5.4428,face,189,3,6,105.2548,18.1734,Town7,env7,2,handheld drill,10.418,tool,190,3,6,105.2548,18.1734,Town7,env7,3,giraffe,2.3107,animal,191,3,7,123.4702,16.4696,Town10,env10,1,katy perry,6.6689,face,192,3,7,123.4702,16.4696,Town10,env10,2,,0.4239,animal,193,3,7,123.4702,16.4696,Town10,env10,3,blueberries and duck,9.3751,fruitveg,194,3,8,139.9813,12.4796,Town6,env6,1,cow,3.6948,animal,195,3,8,139.9813,12.4796,Town6,env6,2,taylor swift,5.1675,face,196,3,8,139.9813,12.4796,Town6,env6,3,measuring tape,3.6153,tool,197,3,9,152.5026,16.2391,Town1,env1,1,cabbage,8.7662,fruitveg,198,3,9,152.5026,16.2391,Town1,env1,2,george clooney,5.5822,face,199,3,9,152.5026,16.2391,Town1,env1,3,zebra,1.8888,animal,1100,3,10,168.7838,14.9022,Town4,env4,1,alligator,7.8709,animal,1101,3,10,168.7838,14.9022,Town4,env4,2,handsaw,2.623,tool,1102,3,10,168.7838,14.9022,Town4,env4,3,natalie portman,4.4065,face,1103,3,11,183.728,12.6229,Town8,env8,1,dog,6.9177,animal,1104,3,11,183.728,12.6229,Town8,env8,2,beyonce,2.4794,face,1105,3,11,183.728,12.6229,Town8,env8,3,pumpkins,3.2241,fruitveg,0106,3,12,196.3931,16.5487,Town11,env11,1,johnny depp,5.7172,face,1107,3,12,196.3931,16.5487,Town11,env11,2,carrot,2.7744,fruitveg,1108,3,12,196.3931,16.5487,Town11,env11,3,hammer,8.0553,tool,1109,4,1,1.0015,23.6969,Town10,env10,1,katy perry,14.5018,face,1110,4,1,1.0015,23.6969,Town10,env10,2,blueberries,3.3669,fruitveg,1111,4,1,1.0015,23.6969,Town10,env10,3,duck,5.8241,animal,1112,4,2,24.7432,11.6334,Town11,env11,1,carrot,7.6573,fruitveg,1113,4,2,24.7432,11.6334,Town11,env11,2,johnny depp,2.5352,face,1114,4,2,24.7432,11.6334,Town11,env11,3,hammer,1.4391,tool,1115,4,3,36.4199,12.3325,Town7,env7,1,sheldon cooper actor,4.4532,face,1116,4,3,36.4199,12.3325,Town7,env7,2,giraffe,2.3902,animal,1117,4,3,36.4199,12.3325,Town7,env7,3,handheld drill,5.487,tool,1118,4,4,48.796,14.0218,Town1,env1,1,cabbage,5.5318,fruitveg,1119,4,4,48.796,14.0218,Town1,env1,2,george clooney,3.7599,face,1120,4,4,48.796,14.0218,Town1,env1,3,zebra,4.7284,animal,1121,4,5,62.8613,16.0423,Town8,env8,1,dog,4.9233,animal,1122,4,5,62.8613,16.0423,Town8,env8,2,beyonce,4.6404,face,1123,4,5,62.8613,16.0423,Town8,env8,3,pumpkins,6.4768,fruitveg,0124,4,6,78.9475,23.1521,Town2,env2,1,mark suckerberg :P,16.6005,face,1125,4,6,78.9475,23.1521,Town2,env2,2,scissors,3.3187,tool,1126,4,6,78.9475,23.1521,Town2,env2,3,cucumbers,3.2311,fruitveg,1127,4,7,102.143,16.7087,Town6,env6,1,cow,8.157,animal,1128,4,7,102.143,16.7087,Town6,env6,2,taylor swift,6.0625,face,1129,4,7,102.143,16.7087,Town6,env6,3,measuring tape,2.4874,tool,1130,4,8,118.8947,13.2095,Town4,env4,1,handsaw,7.6738,tool,1131,4,8,118.8947,13.2095,Town4,env4,2,alligator,2.6621,animal,1132,4,8,118.8947,13.2095,Town4,env4,3,natalie portman,2.8718,face,1133,4,9,132.1484,17.1566,Town12,env12,1,apple,6.6432,fruitveg,1134,4,9,132.1484,17.1566,Town12,env12,2,red stapler,2.7522,tool,1135,4,9,132.1484,17.1566,Town12,env12,3,zooey deschanel,7.7593,face,1136,4,10,149.3485,20.6051,Town3,env3,1,,19.9015,animal,0137,4,10,149.3485,20.6051,Town3,env3,2,,0.3274,face,0138,4,10,149.3485,20.6051,Town3,env3,3,,0.3743,tool,0139,4,11,169.9967,14.7736,Town9,env9,1,banana,2.8133,fruitveg,1140,4,11,169.9967,14.7736,Town9,env9,2,paul mccartney,9.4946,face,1141,4,11,169.9967,14.7736,Town9,env9,3,wrench,2.4639,tool,1142,4,12,184.8138,14.6039,Town5,env5,1,pelican,6.5166,animal,0143,4,12,184.8138,14.6039,Town5,env5,2,watermelon,3.6952,fruitveg,1144,4,12,184.8138,14.6039,Town5,env5,3,benedict cumberbatch,4.39,face,1145,5,1,1.0023,26.624,Town3,env3,1,emma watson,14.9012,face,1146,5,1,1.0023,26.624,Town3,env3,2,bear,3.3033,animal,1147,5,1,1.0023,26.624,Town3,env3,3,green handle screwdriver,8.4155,tool,1148,5,2,27.6735,25.7446,Town6,env6,1,alligator,17.3124,animal,1149,5,2,27.6735,25.7446,Town6,env6,2,natalie portman,3.9424,face,1150,5,2,27.6735,25.7446,Town6,env6,3,handsaw,4.488,tool,1151,5,3,53.4647,11.1057,Town7,env7,1,jim parsons,5.4815,face,1152,5,3,53.4647,11.1057,Town7,env7,2,giraffe,2.9746,animal,1153,5,3,53.4647,11.1057,Town7,env7,3,drill,2.6473,tool,1154,5,4,64.618,10.7351,Town10,env10,1,blueberries,5.7595,fruitveg,1155,5,4,64.618,10.7351,Town10,env10,2,katy perry,3.7191,face,1156,5,4,64.618,10.7351,Town10,env10,3,duck,1.2547,animal,1157,5,5,75.3997,25.3347,Town4,env4,1,cow,17.8622,animal,1158,5,5,75.3997,25.3347,Town4,env4,2,taylor swift,3.2318,face,1159,5,5,75.3997,25.3347,Town4,env4,3,measuring tape,4.2388,tool,1160,5,6,100.7814,10.5446,Town9,env9,1,banana,3.7764,fruitveg,1161,5,6,100.7814,10.5446,Town9,env9,2,wrench,2.0954,tool,1162,5,6,100.7814,10.5446,Town9,env9,3,paul mccartney,4.671,face,1163,5,7,111.3725,22.9725,Town5,env5,1,benedict cumberbatch,6.5284,face,1164,5,7,111.3725,22.9725,Town5,env5,2,watermelon,3.1528,fruitveg,1165,5,7,111.3725,22.9725,Town5,env5,3,pelian,13.2891,animal,0166,5,8,134.3926,49.0132,Town12,env12,1,zooey deschanel,33.5876,face,1167,5,8,134.3926,49.0132,Town12,env12,2,apple,5.095,fruitveg,1168,5,8,134.3926,49.0132,Town12,env12,3,red apple,10.3287,tool,0169,5,9,183.4527,38.6316,Town2,env2,1,mark zuckerberg,27.7758,face,1170,5,9,183.4527,38.6316,Town2,env2,2,blue scissors,5.6632,tool,1171,5,9,183.4527,38.6316,Town2,env2,3,cucumbers,5.1907,fruitveg,1172,5,10,222.1315,7.9297,Town8,env8,1,dog,2.6407,animal,1173,5,10,222.1315,7.9297,Town8,env8,2,beyonce,2.9343,face,1174,5,10,222.1315,7.9297,Town8,env8,3,pumpkins,2.353,fruitveg,0175,5,11,230.1078,15.1614,Town11,env11,1,johnny depp,8.1607,face,1176,5,11,230.1078,15.1614,Town11,env11,2,carrot,2.4872,fruitveg,1177,5,11,230.1078,15.1614,Town11,env11,3,hammer,4.5117,tool,1178,5,12,245.3165,13.4241,Town1,env1,1,cabbage,7.8147,fruitveg,1179,5,12,245.3165,13.4241,Town1,env1,2,zebra,2.1117,animal,1180,5,12,245.3165,13.4241,Town1,env1,3,george clooney,3.4957,face,1