index,run,trial,onset,duration,town,pic,itemNum,resp,respRT,itemType,acc1,1,1,1.0013,56.0844,Town5,env5,1,stapler,38.184,face,02,1,1,1.0013,56.0844,Town5,env5,2,zoey,15.3608,animal,03,1,1,1.0013,56.0844,Town5,env5,3,?,2.5357,fruitveg,04,1,2,57.1326,8.9479,Town10,env10,1,?,7.6118,animal,05,1,2,57.1326,8.9479,Town10,env10,2,?,0.7434,face,06,1,2,57.1326,8.9479,Town10,env10,3,?,0.591,fruitveg,07,1,3,66.1284,9.7765,Town1,env1,1,emma,8.192,animal,08,1,3,66.1284,9.7765,Town1,env1,2,?,1.0557,face,09,1,3,66.1284,9.7765,Town1,env1,3,?,0.5268,fruitveg,010,1,4,75.9527,3.6335,Town9,env9,1,?,2.5615,fruitveg,011,1,4,75.9527,3.6335,Town9,env9,2,?,0.5181,face,012,1,4,75.9527,3.6335,Town9,env9,3,?,0.5518,tool,013,1,5,79.6327,6.4559,Town11,env11,1,?,5.169,tool,014,1,5,79.6327,6.4559,Town11,env11,2,?,0.6138,face,015,1,5,79.6327,6.4559,Town11,env11,3,?,0.6714,fruitveg,016,1,6,86.1365,3.5703,Town6,env6,1,?,2.5201,tool,017,1,6,86.1365,3.5703,Town6,env6,2,?,0.5367,animal,018,1,6,86.1365,3.5703,Town6,env6,3,?,0.5118,face,019,1,7,89.7533,22.0124,Town12,env12,1,stapler,11.8575,tool,120,1,7,89.7533,22.0124,Town12,env12,2,zoey,9.1866,face,121,1,7,89.7533,22.0124,Town12,env12,3,?,0.9665,fruitveg,022,1,8,111.8136,12.981,Town2,env2,1,mark,8.3667,face,123,1,8,111.8136,12.981,Town2,env2,2,?,4.0841,tool,024,1,8,111.8136,12.981,Town2,env2,3,?,0.5279,fruitveg,025,1,9,124.842,3.144,Town8,env8,1,?,2.0939,fruitveg,026,1,9,124.842,3.144,Town8,env8,2,?,0.4969,animal,027,1,9,124.842,3.144,Town8,env8,3,?,0.5514,face,028,1,10,128.0327,3.7437,Town3,env3,1,?,2.6875,animal,029,1,10,128.0327,3.7437,Town3,env3,2,?,0.4793,face,030,1,10,128.0327,3.7437,Town3,env3,3,?,0.5752,tool,031,1,11,131.825,4.0796,Town4,env4,1,?,2.9838,tool,032,1,11,131.825,4.0796,Town4,env4,2,?,0.543,animal,033,1,11,131.825,4.0796,Town4,env4,3,?,0.551,face,034,1,12,135.9513,2.2253,Town7,env7,1,?,1.153,tool ,035,1,12,135.9513,2.2253,Town7,env7,2,?,0.4437,animal,036,1,12,135.9513,2.2253,Town7,env7,3,?,0.6269,face,037,2,1,1.0011,9.1087,Town4,env4,1,?,7.8602,tool,038,2,1,1.0011,9.1087,Town4,env4,2,?,0.6788,animal,039,2,1,1.0011,9.1087,Town4,env4,3,?,0.5659,face,040,2,2,10.1572,8.0461,Town11,env11,1,?,7.1088,tool,041,2,2,10.1572,8.0461,Town11,env11,2,?,0.4966,face,042,2,2,10.1572,8.0461,Town11,env11,3,?,0.4389,fruitveg,043,2,3,18.25,10.8148,Town10,env10,1,pigeon,5.8387,animal,144,2,3,18.25,10.8148,Town10,env10,2,katy,3.1669,face,145,2,3,18.25,10.8148,Town10,env10,3,?,1.8072,fruitveg,046,2,4,29.1113,6.6892,Town8,env8,1,?,5.0737,fruitveg,047,2,4,29.1113,6.6892,Town8,env8,2,?,0.6313,animal,048,2,4,29.1113,6.6892,Town8,env8,3,?,0.9824,face,049,2,5,35.8473,14.8272,Town2,env2,1,mark,7.1786,face,150,2,5,35.8473,14.8272,Town2,env2,2,cucumber,4.7669,fruitveg,151,2,5,35.8473,14.8272,Town2,env2,3,scissors,2.88,tool,152,2,6,50.7213,4.9305,Town9,env9,1,?,4.0563,fruitveg,053,2,6,50.7213,4.9305,Town9,env9,2,?,0.4406,face,054,2,6,50.7213,4.9305,Town9,env9,3,?,0.4316,tool,055,2,7,55.6984,2.8249,Town3,env3,1,?,1.4912,animal,056,2,7,55.6984,2.8249,Town3,env3,2,?,0.5956,face,057,2,7,55.6984,2.8249,Town3,env3,3,?,0.7364,tool,058,2,8,58.5696,3.1697,Town1,env1,1,?,1.9603,animal,059,2,8,58.5696,3.1697,Town1,env1,2,?,0.7114,face,060,2,8,58.5696,3.1697,Town1,env1,3,?,0.4963,fruitveg,061,2,9,61.7855,4.3134,Town6,env6,1,?,2.4009,tool,062,2,9,61.7855,4.3134,Town6,env6,2,?,0.9195,animal,063,2,9,61.7855,4.3134,Town6,env6,3,?,0.9911,face,064,2,10,66.1459,3.1375,Town5,env5,1,?,1.6406,face,065,2,10,66.1459,3.1375,Town5,env5,2,?,0.6624,animal,066,2,10,66.1459,3.1375,Town5,env5,3,?,0.8325,fruitveg,067,2,11,69.3302,7.7692,Town12,env12,1,?,1.3043,fruitveg,068,2,11,69.3302,7.7692,Town12,env12,2,stapler,4.1827,face,169,2,11,69.3302,7.7692,Town12,env12,3,zoey,2.2804,tool,170,2,12,77.1458,3.6326,Town7,env7,1,?,2.6397,tool ,071,2,12,77.1458,3.6326,Town7,env7,2,?,0.464,animal,072,2,12,77.1458,3.6326,Town7,env7,3,?,0.5272,face,073,3,1,1.0018,30.6501,Town9,env9,1,paul,20.4159,face,174,3,1,1.0018,30.6501,Town9,env9,2,?,9.7905,fruitveg,075,3,1,1.0018,30.6501,Town9,env9,3,?,0.4397,tool,076,3,2,31.6941,13.6328,Town12,env12,1,stapler,3.4274,tool,177,3,2,31.6941,13.6328,Town12,env12,2,zoey,1.9039,face,178,3,2,31.6941,13.6328,Town12,env12,3,?,8.2998,fruitveg,079,3,3,45.3695,7.4996,Town6,env6,1,?,6.6072,tool,080,3,3,45.3695,7.4996,Town6,env6,2,?,0.4228,animal,081,3,3,45.3695,7.4996,Town6,env6,3,?,0.4679,face,082,3,4,52.9114,7.9805,Town4,env4,1,?,7.0834,tool,083,3,4,52.9114,7.9805,Town4,env4,2,?,0.3831,animal,084,3,4,52.9114,7.9805,Town4,env4,3,?,0.5121,face,085,3,5,60.9335,17.5505,Town1,env1,1,george,11.1359,face,186,3,5,60.9335,17.5505,Town1,env1,2,zebra,3.8218,animal,187,3,5,60.9335,17.5505,Town1,env1,3,?,2.591,fruitveg,088,3,6,78.5272,16.8515,Town3,env3,1,emma,12.1298,face,189,3,6,78.5272,16.8515,Town3,env3,2,screwdriver,4.081,tool,190,3,6,78.5272,16.8515,Town3,env3,3,?,0.6389,animal,091,3,7,95.4207,16.9268,Town10,env10,1,katy,15.8709,face,192,3,7,95.4207,16.9268,Town10,env10,2,?,0.6864,animal,093,3,7,95.4207,16.9268,Town10,env10,3,?,0.3677,fruitveg,094,3,8,112.39,7.3578,Town2,env2,1,?,0.3982,tool,095,3,8,112.39,7.3578,Town2,env2,2,mark,3.2226,face,196,3,8,112.39,7.3578,Town2,env2,3,cucumber,3.7353,fruitveg,197,3,9,119.7904,15.8862,Town8,env8,1,puppy,11.3172,animal,198,3,9,119.7904,15.8862,Town8,env8,2,beyonce,2.1745,face,199,3,9,119.7904,15.8862,Town8,env8,3,oranges,2.3928,fruitveg,1100,3,10,135.7206,5.9027,Town5,env5,1,?,5.0627,face,0101,3,10,135.7206,5.9027,Town5,env5,2,?,0.4064,animal,0102,3,10,135.7206,5.9027,Town5,env5,3,?,0.432,fruitveg,0103,3,11,141.6659,14.5526,Town7,env7,1,sheldon,6.0769,face,1104,3,11,141.6659,14.5526,Town7,env7,2,giraffe,6.3139,animal,1105,3,11,141.6659,14.5526,Town7,env7,3,drill,2.1601,tool,1106,3,12,156.2607,4.4785,Town11,env11,1,?,3.6054,tool,0107,3,12,156.2607,4.4785,Town11,env11,2,?,0.4311,face,0108,3,12,156.2607,4.4785,Town11,env11,3,?,0.4402,fruitveg,0109,4,1,1.0014,27.3767,Town2,env2,1,mark,18.8946,face,1110,4,1,1.0014,27.3767,Town2,env2,2,cucumber,4.4551,fruitveg,1111,4,1,1.0014,27.3767,Town2,env2,3,scissos,4.0231,tool,1112,4,2,28.4247,16.6529,Town1,env1,1,george,6.3293,face,1113,4,2,28.4247,16.6529,Town1,env1,2,giraffe,3.9432,animal,0114,4,2,28.4247,16.6529,Town1,env1,3,lettuce,6.3786,fruitveg,1115,4,3,45.1223,10.7235,Town8,env8,1,beyonce,5.2184,face,1116,4,3,45.1223,10.7235,Town8,env8,2,puppy,2.5917,animal,1117,4,3,45.1223,10.7235,Town8,env8,3,oranges,2.9117,fruitveg,1118,4,4,55.8906,36.0044,Town11,env11,1,johnny depp,30.7469,face,1119,4,4,55.8906,36.0044,Town11,env11,2,carrot,3.7841,fruitveg,1120,4,4,55.8906,36.0044,Town11,env11,3,hammer,1.4716,tool,1121,4,5,91.9409,15.4568,Town9,env9,1,paul,4.2404,face,1122,4,5,91.9409,15.4568,Town9,env9,2,banana,4.3273,fruitveg,1123,4,5,91.9409,15.4568,Town9,env9,3,wrench,6.8874,tool,1124,4,6,107.4461,14.8406,Town10,env10,1,katy,2.9592,face,1125,4,6,107.4461,14.8406,Town10,env10,2,pigeon,7.0283,animal,1126,4,6,107.4461,14.8406,Town10,env10,3,?,4.8515,fruitveg,0127,4,7,122.3327,24.9833,Town6,env6,1,natalie,14.636,face,0128,4,7,122.3327,24.9833,Town6,env6,2,alligator,2.6958,animal,0129,4,7,122.3327,24.9833,Town6,env6,3,?,7.6498,tool,0130,4,8,147.3625,7.0178,Town12,env12,1,stapler,4.7861,tool,1131,4,8,147.3625,7.0178,Town12,env12,2,zoey,0.9267,face,1132,4,8,147.3625,7.0178,Town12,env12,3,apple,1.3033,fruitveg,1133,4,9,154.4274,17.3754,Town4,env4,1,?,14.7828,tool,0134,4,9,154.4274,17.3754,Town4,env4,2,?,0.4156,animal,0135,4,9,154.4274,17.3754,Town4,env4,3,?,2.1754,face,0136,4,10,171.85,6.7481,Town5,env5,1,?,5.7,face,0137,4,10,171.85,6.7481,Town5,env5,2,?,0.5589,animal,0138,4,10,171.85,6.7481,Town5,env5,3,?,0.4875,fruitveg,0139,4,11,178.643,10.899,Town7,env7,1,sheldon,3.3461,face,1140,4,11,178.643,10.899,Town7,env7,2,giraffe,4.9684,animal,1141,4,11,178.643,10.899,Town7,env7,3,drill,2.5829,tool,1142,4,12,189.587,9.5007,Town3,env3,1,emma,2.9066,face,1143,4,12,189.587,9.5007,Town3,env3,2,bear,3.5605,animal,1144,4,12,189.587,9.5007,Town3,env3,3,screwdriver,3.0318,tool,1145,5,1,1.0026,19.401,Town2,env2,1,mark,11.6793,face,1146,5,1,1.0026,19.401,Town2,env2,2,cucumber,5.9747,fruitveg,1147,5,1,1.0026,19.401,Town2,env2,3,scissors,1.7431,tool,1148,5,2,20.4545,12.7712,Town9,env9,1,paul,5.4996,face,1149,5,2,20.4545,12.7712,Town9,env9,2,banana,4.1654,fruitveg,1150,5,2,20.4545,12.7712,Town9,env9,3,wrench,3.1043,tool,1151,5,3,33.2767,25.6562,Town6,env6,1,taylor,14.3956,face,1152,5,3,33.2767,25.6562,Town6,env6,2,measuring tape,6.0302,tool,1153,5,3,33.2767,25.6562,Town6,env6,3,cow,5.2285,animal,1154,5,4,58.9822,30.4302,Town11,env11,1,johnny,13.7471,face,1155,5,4,58.9822,30.4302,Town11,env11,2,hammer,6.1593,tool,1156,5,4,58.9822,30.4302,Town11,env11,3,carrot,10.5221,fruitveg,1157,5,5,89.4615,14.5759,Town1,env1,1,george,5.6301,face,1158,5,5,89.4615,14.5759,Town1,env1,2,zebra,4.3034,animal,1159,5,5,89.4615,14.5759,Town1,env1,3,lettuce,4.6406,fruitveg,1160,5,6,104.0871,7.3016,Town12,env12,1,apple,3.9085,fruitveg,1161,5,6,104.0871,7.3016,Town12,env12,2,zoey,1.2481,face,1162,5,6,104.0871,7.3016,Town12,env12,3,stapler,2.1431,tool,1163,5,7,111.438,7.922,Town4,env4,1,?,6.9608,tool,0164,5,7,111.438,7.922,Town4,env4,2,?,0.5196,animal,0165,5,7,111.438,7.922,Town4,env4,3,?,0.4397,face,0166,5,8,119.4117,10.7001,Town3,env3,1,emma,4.1081,face,1167,5,8,119.4117,10.7001,Town3,env3,2,screwdriver,5.3586,tool,1168,5,8,119.4117,10.7001,Town3,env3,3,bear,1.2317,animal,1169,5,9,130.1659,5.7148,Town5,env5,1,?,4.3927,face,0170,5,9,130.1659,5.7148,Town5,env5,2,?,0.6402,animal,0171,5,9,130.1659,5.7148,Town5,env5,3,?,0.68,fruitveg,0172,5,10,135.9304,11.6861,Town7,env7,1,jim,4.6684,face,1173,5,10,135.9304,11.6861,Town7,env7,2,giraffe,3.7195,animal,1174,5,10,135.9304,11.6861,Town7,env7,3,drill,3.2964,tool,1175,5,11,147.6655,14.8112,Town10,env10,1,katy,7.4536,face,1176,5,11,147.6655,14.8112,Town10,env10,2,pigeon,1.7764,animal,1177,5,11,147.6655,14.8112,Town10,env10,3,?,5.5793,fruitveg,0178,5,12,162.5277,8.4205,Town8,env8,1,beyonce,3.797,face,1179,5,12,162.5277,8.4205,Town8,env8,2,puppy,2.9831,animal,1180,5,12,162.5277,8.4205,Town8,env8,3,oranges,1.6385,fruitveg,1