index,run,trial,onset,duration,town,pic,itemNum,resp,respRT,itemType,acc1,1,1,1.0011,62.9235,Town12,env12,1,beyonce,53.3604,face,02,1,1,1.0011,62.9235,Town12,env12,2,dog,3.3267,fruitveg,03,1,1,1.0011,62.9235,Town12,env12,3,lettuce,6.2323,tool,04,1,2,63.9664,44.5982,Town2,env2,1,?,41.519,face,05,1,2,63.9664,44.5982,Town2,env2,2,?,1.3104,fruitveg,06,1,2,63.9664,44.5982,Town2,env2,3,?,1.767,tool,07,1,3,108.6056,80.8639,Town3,env3,1,?,78.9988,face,08,1,3,108.6056,80.8639,Town3,env3,2,?,0.9996,animal,09,1,3,108.6056,80.8639,Town3,env3,3,?,0.8635,tool,010,1,4,189.511,10.2274,Town7,env7,1,?,8.3216,face,011,1,4,189.511,10.2274,Town7,env7,2,?,0.6235,animal,012,1,4,189.511,10.2274,Town7,env7,3,?,1.2806,tool,013,1,5,199.7794,23.648,Town1,env1,1,mark zuckerberg,17.2475,face,114,1,5,199.7794,23.648,Town1,env1,2,zucchini,3.4714,fruitveg,115,1,5,199.7794,23.648,Town1,env1,3,/,2.9272,animal,016,1,6,223.4691,26.0857,Town6,env6,1,?,23.6359,face,017,1,6,223.4691,26.0857,Town6,env6,2,?,1.0247,animal,018,1,6,223.4691,26.0857,Town6,env6,3,?,1.4232,tool,019,1,7,249.5962,20.9793,Town8,env8,1,?,19.4183,face,020,1,7,249.5962,20.9793,Town8,env8,2,?,0.68,animal,021,1,7,249.5962,20.9793,Town8,env8,3,?,0.8794,fruitveg,022,1,8,270.617,33.0748,Town5,env5,1,?,30.779,face,023,1,8,270.617,33.0748,Town5,env5,2,?,0.7105,animal,024,1,8,270.617,33.0748,Town5,env5,3,?,1.5835,fruitveg,025,1,9,303.7325,19.1967,Town10,env10,1,?,15.4365,face,026,1,9,303.7325,19.1967,Town10,env10,2,?,0.8715,animal,027,1,9,303.7325,19.1967,Town10,env10,3,?,2.8869,fruitveg,028,1,10,322.9705,7.9278,Town4,env4,1,?,5.9904,face,029,1,10,322.9705,7.9278,Town4,env4,2,?,0.8236,animal,030,1,10,322.9705,7.9278,Town4,env4,3,?,1.1122,tool,031,1,11,330.9404,24.2695,Town11,env11,1,?,22.6201,face,032,1,11,330.9404,24.2695,Town11,env11,2,?,0.7047,fruitveg,033,1,11,330.9404,24.2695,Town11,env11,3,?,0.943,tool,034,1,12,355.2513,11.8571,Town9,env9,1,?,6.7598,face,035,1,12,355.2513,11.8571,Town9,env9,2,?,0.967,tool,036,1,12,355.2513,11.8571,Town9,env9,3,?,4.1285,fruitveg,037,2,1,1.0011,95.3719,Town12,env12,1,?,88.8172,face,038,2,1,1.0011,95.3719,Town12,env12,2,Emma Watson,3.7675,fruitveg,039,2,1,1.0011,95.3719,Town12,env12,3,screwdriver,2.7828,tool,040,2,2,96.4142,29.0823,Town1,env1,1,?,11.1204,face,041,2,2,96.4142,29.0823,Town1,env1,2,?,0.7685,animal,042,2,2,96.4142,29.0823,Town1,env1,3,?,17.1916,fruitveg,043,2,3,125.5375,19.4983,Town7,env7,1,Johnny Depp,13.9125,face,044,2,3,125.5375,19.4983,Town7,env7,2,Giraffe,1.9752,animal,145,2,3,125.5375,19.4983,Town7,env7,3,?,3.6087,tool,046,2,4,145.0764,35.0003,Town5,env5,1,?,33.8724,face,047,2,4,145.0764,35.0003,Town5,env5,2,?,0.5749,animal,048,2,4,145.0764,35.0003,Town5,env5,3,?,0.5512,fruitveg,049,2,5,180.1181,43.4822,Town11,env11,1,?,41.865,face,050,2,5,180.1181,43.4822,Town11,env11,2,?,1.0714,fruitveg,051,2,5,180.1181,43.4822,Town11,env11,3,?,0.5439,tool,052,2,6,223.6415,43.8238,Town6,env6,1,?,42.632,face,053,2,6,223.6415,43.8238,Town6,env6,2,?,0.6154,animal,054,2,6,223.6415,43.8238,Town6,env6,3,?,0.5746,tool,055,2,7,267.5066,11.0732,Town3,env3,1,?,9.8406,face,056,2,7,267.5066,11.0732,Town3,env3,2,?,0.566,animal,057,2,7,267.5066,11.0732,Town3,env3,3,?,0.6648,tool,058,2,8,278.6215,14.4924,Town8,env8,1,beyonce,4.325,face,159,2,8,278.6215,14.4924,Town8,env8,2,dog,0.687,animal,160,2,8,278.6215,14.4924,Town8,env8,3,?,9.4787,fruitveg,061,2,9,293.1547,47.1912,Town2,env2,1,Zuckerberg,43.2081,face,162,2,9,293.1547,47.1912,Town2,env2,2,Zucchini,2.0784,fruitveg,163,2,9,293.1547,47.1912,Town2,env2,3,?,1.903,tool,064,2,10,340.3871,9.1522,Town10,env10,1,Kate Perry,4.4791,face,165,2,10,340.3871,9.1522,Town10,env10,2,?,4.0717,animal,066,2,10,340.3871,9.1522,Town10,env10,3,?,0.5994,fruitveg,067,2,11,349.5799,17.4304,Town4,env4,1,saw,11.837,tool,168,2,11,349.5799,17.4304,Town4,env4,2,?,4.9608,face,069,2,11,349.5799,17.4304,Town4,env4,3,?,0.6307,animal,070,2,12,367.0511,9.0408,Town9,env9,1,?,7.9449,face,071,2,12,367.0511,9.0408,Town9,env9,2,?,0.5356,fruitveg,072,2,12,367.0511,9.0408,Town9,env9,3,?,0.5585,tool,073,3,1,1.002,49.2843,Town5,env5,1,Benedict ,25.6648,face,174,3,1,1.002,49.2843,Town5,env5,2,watermelon,14.8173,fruitveg,175,3,1,1.002,49.2843,Town5,env5,3,?,8.7983,animal,076,3,2,50.3349,89.7912,Town6,env6,1,taylor swift,87.0473,face,177,3,2,50.3349,89.7912,Town6,env6,2,?,2.1752,animal,078,3,2,50.3349,89.7912,Town6,env6,3,?,0.5668,tool,079,3,3,140.1755,21.7197,Town8,env8,1,oranges,18.4154,fruitveg,180,3,3,140.1755,21.7197,Town8,env8,2,beyonce,2.3182,face,181,3,3,140.1755,21.7197,Town8,env8,3,dog,0.9842,animal,182,3,4,161.9435,103.9054,Town9,env9,1,Paul Mccartney,93.2566,face,183,3,4,161.9435,103.9054,Town9,env9,2,banana,9.1681,fruitveg,184,3,4,161.9435,103.9054,Town9,env9,3,?,1.4788,tool,085,3,5,265.8985,33.8067,Town7,env7,1,johnny depp,21.7426,face,086,3,5,265.8985,33.8067,Town7,env7,2,giraffe,3.8146,animal,187,3,5,265.8985,33.8067,Town7,env7,3,drill,8.2476,tool,188,3,6,299.7541,36.6269,Town10,env10,1,kate perry,3.7262,face,189,3,6,299.7541,36.6269,Town10,env10,2,apples,7.2007,fruitveg,090,3,6,299.7541,36.6269,Town10,env10,3,?,25.6982,animal,091,3,7,336.4303,66.4547,Town11,env11,1,?,64.518,face,092,3,7,336.4303,66.4547,Town11,env11,2,?,1.4155,fruitveg,093,3,7,336.4303,66.4547,Town11,env11,3,?,0.5194,tool,094,3,8,402.9345,39.0814,Town3,env3,1,emma watson,9.6616,face,195,3,8,402.9345,39.0814,Town3,env3,2,?,28.8811,animal,096,3,8,402.9345,39.0814,Town3,env3,3,?,0.5368,tool,097,3,9,442.0643,29.8566,Town1,env1,1,?,27.9678,face,098,3,9,442.0643,29.8566,Town1,env1,2,?,1.2308,animal,099,3,9,442.0643,29.8566,Town1,env1,3,?,0.6561,fruitveg,0100,3,10,471.9693,17.7626,Town12,env12,1,Zoey,14.2822,face,1101,3,10,471.9693,17.7626,Town12,env12,2,apples,1.6155,fruitveg,1102,3,10,471.9693,17.7626,Town12,env12,3,wrench,1.863,tool,0103,3,11,489.7803,15.9412,Town2,env2,1,zuckerberg,6.0372,face,1104,3,11,489.7803,15.9412,Town2,env2,2,zucchini,2.1982,fruitveg,1105,3,11,489.7803,15.9412,Town2,env2,3,?,7.7038,tool,0106,3,12,505.7698,38.1619,Town4,env4,1,saw,10.7451,tool,1107,3,12,505.7698,38.1619,Town4,env4,2,nerd w/green shirt,26.3437,face,0108,3,12,505.7698,38.1619,Town4,env4,3,?,1.0713,animal,0109,4,1,1.0024,18.7672,Town5,env5,1,benedict,11.0642,face,1110,4,1,1.0024,18.7672,Town5,env5,2,watermelon,1.8803,fruitveg,1111,4,1,1.0024,18.7672,Town5,env5,3,?,5.8188,animal,0112,4,2,19.8157,6.6965,Town8,env8,1,beyonce,3.4166,face,1113,4,2,19.8157,6.6965,Town8,env8,2,dog,0.975,animal,1114,4,2,19.8157,6.6965,Town8,env8,3,oranges,2.3032,fruitveg,1115,4,3,26.558,17.3433,Town10,env10,1,katy perry,7.3936,face,1116,4,3,26.558,17.3433,Town10,env10,2,?,9.2845,fruitveg,0117,4,3,26.558,17.3433,Town10,env10,3,?,0.6635,animal,0118,4,4,43.9479,19.7181,Town3,env3,1,emma watson,9.9939,face,1119,4,4,43.9479,19.7181,Town3,env3,2,?,9.0829,animal,0120,4,4,43.9479,19.7181,Town3,env3,3,?,0.6395,tool,0121,4,5,63.712,10.4669,Town7,env7,1,giraffe,4.649,animal,1122,4,5,63.712,10.4669,Town7,env7,2,johnny dep,2.7045,face,0123,4,5,63.712,10.4669,Town7,env7,3,drill,3.1115,tool,1124,4,6,74.2254,27.7348,Town1,env1,1,wrench,19.2451,face,0125,4,6,74.2254,27.7348,Town1,env1,2,paul mcartney,7.6477,animal,0126,4,6,74.2254,27.7348,Town1,env1,3,banna,0.8402,fruitveg,0127,4,7,102.0058,5.8809,Town11,env11,1,?,2.8489,face,0128,4,7,102.0058,5.8809,Town11,env11,2,?,2.4478,fruitveg,0129,4,7,102.0058,5.8809,Town11,env11,3,?,0.5824,tool,0130,4,8,107.9329,12.1471,Town12,env12,1,zoey,6.7543,face,1131,4,8,107.9329,12.1471,Town12,env12,2,apples,2.5357,fruitveg,1132,4,8,107.9329,12.1471,Town12,env12,3,?,2.8551,tool,0133,4,9,120.1262,11.9696,Town9,env9,1,taylor swift,9.8809,face,0134,4,9,120.1262,11.9696,Town9,env9,2,?,1.559,fruitveg,0135,4,9,120.1262,11.9696,Town9,env9,3,?,0.528,tool,0136,4,10,132.1416,13.6013,Town2,env2,1,mark zuckerberg,6.0655,face,1137,4,10,132.1416,13.6013,Town2,env2,2,zucchini,2.8067,fruitveg,1138,4,10,132.1416,13.6013,Town2,env2,3,?,4.7272,tool,0139,4,11,145.7891,15.7138,Town4,env4,1,saw,4.3385,tool,1140,4,11,145.7891,15.7138,Town4,env4,2,greenshirtguy,9.2467,face,0141,4,11,145.7891,15.7138,Town4,env4,3,?,2.1269,animal,0142,4,12,161.5495,9.6023,Town6,env6,1,?,8.4648,face,0143,4,12,161.5495,9.6023,Town6,env6,2,?,0.5282,animal,0144,4,12,161.5495,9.6023,Town6,env6,3,?,0.6075,tool,0145,5,1,1.0013,20.8581,Town10,env10,1,kate perry,7.2379,face,1146,5,1,1.0013,20.8581,Town10,env10,2,?,13.0654,animal,0147,5,1,1.0013,20.8581,Town10,env10,3,?,0.5508,fruitveg,0148,5,2,21.9151,12.2633,Town3,env3,1,emma watson,7.9266,face,1149,5,2,21.9151,12.2633,Town3,env3,2,?,3.6304,animal,0150,5,2,21.9151,12.2633,Town3,env3,3,?,0.7044,tool,0151,5,3,34.234,17.0666,Town6,env6,1,taylor swift,10.7618,face,1152,5,3,34.234,17.0666,Town6,env6,2,cow,3.2553,animal,1153,5,3,34.234,17.0666,Town6,env6,3,measuring tape,3.0476,tool,1154,5,4,51.3568,8.489,Town7,env7,1,giraffe,5.5937,animal,1155,5,4,51.3568,8.489,Town7,env7,2,hammer,1.094,tool,0156,5,4,51.3568,8.489,Town7,env7,3,johnny depp,1.7995,face,0157,5,5,59.9013,12.4837,Town1,env1,1,jim thompson,10.9559,face,0158,5,5,59.9013,12.4837,Town1,env1,2,?,1.0221,animal,0159,5,5,59.9013,12.4837,Town1,env1,3,?,0.5039,fruitveg,0160,5,6,72.4411,9.7607,Town12,env12,1,zoey,3.8324,face,1161,5,6,72.4411,9.7607,Town12,env12,2,stapler,2.31,tool,1162,5,6,72.4411,9.7607,Town12,env12,3,apples,3.6165,fruitveg,1163,5,7,82.2571,17.5662,Town9,env9,1,paul macartney,10.2217,face,1164,5,7,82.2571,17.5662,Town9,env9,2,?,1.3916,tool,0165,5,7,82.2571,17.5662,Town9,env9,3,banana,5.9512,fruitveg,1166,5,8,99.88,13.7458,Town8,env8,1,beyonce,3.6556,face,1167,5,8,99.88,13.7458,Town8,env8,2,dog,0.9268,animal,1168,5,8,99.88,13.7458,Town8,env8,3,oranges,9.1615,frtuiveg,1169,5,9,113.6811,17.6193,Town4,env4,1,saw,5.6869,tool,1170,5,9,113.6811,17.6193,Town4,env4,2,?,10.0274,face,0171,5,9,113.6811,17.6193,Town4,env4,3,?,1.9032,animal,0172,5,10,131.356,21.3934,Town11,env11,1,?,14.0498,face,0173,5,10,131.356,21.3934,Town11,env11,2,?,6.5983,fruitveg,0174,5,10,131.356,21.3934,Town11,env11,3,?,0.7435,tool,0175,5,11,152.8049,14.3953,Town5,env5,1,benedict,3.5535,face,1176,5,11,152.8049,14.3953,Town5,env5,2,watermelon,1.9577,fruitveg,1177,5,11,152.8049,14.3953,Town5,env5,3,?,8.8822,animal,0178,5,12,167.2567,11.9757,Town2,env2,1,zuckerberg,3.5906,face,1179,5,12,167.2567,11.9757,Town2,env2,2,zucchini,2.2481,fruitveg,1180,5,12,167.2567,11.9757,Town2,env2,3,screwdriver,6.1353,tool,0